Comment:    Automatically converted from EXFOR on 2019-11-29,13:44:31
            by the IAEA-NDS EXFOR Web-Retrieval System
            program ver-2019-06-26 (V.Zerkin).
            X4Title: "Measurement of elastic 12C+alpha scattering: Details
             of the experiment, analysis, and discussion of phase
             shifts"
            X4Author: P.Tischhauser,  A.Couture,  R.Detwiler,  J.Gorres, 
            C.Ugalde,  E.Stech,  M.Wiescher,  M.Heil, 
             F.Kappeler, R.E.Azuma,  L.Buchmann
            EXFOR: C1461014    Created: 2006-08-16  Updated: 2013-03-30
            X4Reaction:6-C-12(A,EL)6-C-12,,DA; X4Points:11392
            ENSDF:LevelEnergy=0.00
            AME2016: M1=4.002603254 M2=12.0 M3=4.002603254 M4=12.0

Version:      R33
X4Number:     C1461014 20130330
Source:       P.Tischhauser+(2009), Jour. Physical Review, Part C, Nuclear Physics, Vol.79, p.055803
Reaction:     12C(a,a0)12C
Distribution: Energy
Sigfactors:   1.00, 0.00
Enfactors:    1.00, 0.00, 0.00, 0.00
Units:        mb
Composition:
Masses:       4.0, 12.0, 4.0, 12.0
Zeds:         2, 6, 2, 6
Qvalue:       0.0, 0.00, 0.00, 0.00, 0.00
Theta:        150.8
Data:
 2608.70,     0.00,  16.5329,   1.3388
 2658.90,     0.00,  15.0544,   1.2284
 2709.30,     0.00,  11.2555,   1.1075
 2757.10,     0.00,   8.8343,   1.1397
 2809.00,     0.00,   7.9161,   0.8714
 2809.80,     0.00,   6.7795,   0.9202
 2858.70,     0.00,   6.1458,   0.6246
 2903.90,     0.00,   3.8166,   0.5174
 2904.40,     0.00,    4.563,   0.6196
 2909.20,     0.00,   4.9762,   0.8324
 2958.80,     0.00,   2.5588,   0.6038
 3008.60,     0.00,   4.3265,   0.6684
 3009.80,     0.00,   4.7869,   0.5402
 3049.80,     0.00,   7.4933,   1.4047
 3050.30,     0.00,   7.8787,   2.2724
 3100.30,     0.00,  18.5942,   1.5553
 3112.20,     0.00,  21.2554,   1.4596
 3134.90,     0.00,  22.7876,   1.8631
 3201.60,     0.00,  43.6697,   2.1608
 3203.50,     0.00,  43.1523,   1.6299
 3204.60,     0.00,  43.4936,   2.2064
 3205.70,     0.00,   45.004,   1.6712
 3248.70,     0.00,  51.7667,   1.6052
 3308.70,     0.00,  68.2132,   2.0909
 3310.00,     0.00,  68.6314,   3.7473
 3311.20,     0.00,  71.6257,   3.9819
 3346.70,     0.00,  72.4719,   2.6107
 3398.10,     0.00,  68.4149,    2.433
 3399.40,     0.00,  71.8755,     2.36
 3413.30,     0.00,  69.8027,   2.4488
 3436.50,     0.00,  69.7749,   2.6039
 3473.10,     0.00,  74.3019,   3.9273
 3473.90,     0.00,  70.6493,   2.1676
 3511.90,     0.00,  72.5029,   2.7361
 3537.20,     0.00,  68.9054,   2.3152
 3537.80,     0.00,  70.8408,   2.7628
 3548.30,     0.00,  72.5598,   3.7078
 3549.00,     0.00,  67.4913,   3.7188
 3558.90,     0.00,  72.3184,   4.8887
 3562.60,     0.00,  70.2672,   2.5718
 3565.10,     0.00,  63.7971,   2.2903
 3567.80,     0.00,  68.5388,   2.5359
 3568.70,     0.00,  70.1673,   4.0837
 3570.10,     0.00,  64.6226,   2.5267
 3572.60,     0.00,  67.1157,   2.5705
 3575.20,     0.00,  60.4415,   2.4841
 3577.70,     0.00,  61.7539,   2.6986
 3579.00,     0.00,   69.681,   3.2541
 3579.10,     0.00,  81.6024,  10.7144
 3580.20,     0.00,  67.3863,    2.992
 3582.70,     0.00,  68.9129,   2.7358
 3585.20,     0.00,  70.0843,   2.6422
 3587.70,     0.00,  71.9031,   2.8042
 3589.20,     0.00,  68.7574,   3.1628
 3590.20,     0.00,  74.7247,    2.862
 3592.80,     0.00,  76.1886,   3.1694
 3595.00,     0.00,  76.3231,    2.137
 3595.30,     0.00,  81.8754,   3.2013
 3597.80,     0.00,  76.8369,   3.2579
 3598.60,     0.00,  72.6673,   3.4444
 3600.30,     0.00,  77.0762,   3.2372
 3605.40,     0.00,  76.0631,   2.9132
 3608.90,     0.00,  75.4703,   2.9056
 3629.10,     0.00,  72.3385,   3.1106
 3648.00,     0.00,  68.9295,   3.2673
 3648.70,     0.00,  67.6412,   3.1115
 3698.80,     0.00,  69.2061,   2.0554
 3712.70,     0.00,  67.6341,   2.4754
 3747.00,     0.00,  65.4785,   2.0691
 3748.80,     0.00,  68.7634,   3.1975
 3797.10,     0.00,  68.9532,   3.2201
 3798.10,     0.00,  63.1133,   1.9818
 3812.60,     0.00,  60.2474,   2.5726
 3848.50,     0.00,  64.0353,   2.7279
 3863.30,     0.00,  66.8311,   2.6465
 3899.20,     0.00,  65.8267,   2.3632
 3913.10,     0.00,  61.2366,   2.5781
 3949.10,     0.00,  60.2255,   2.7523
 3959.90,     0.00,   61.313,   2.6365
 4013.00,     0.00,  58.4668,   1.8885
 4013.60,     0.00,  63.6268,   2.4115
 4013.70,     0.00,  61.6433,    2.626
 4045.90,     0.00,  60.0672,   2.0363
 4046.50,     0.00,  60.2101,   3.0346
 4047.30,     0.00,  60.0099,   1.7823
 4060.50,     0.00,  55.3969,   1.9167
 4061.10,     0.00,  57.1135,   1.4907
 4061.20,     0.00,  57.9823,    1.954
 4063.80,     0.00,   56.549,   2.5221
 4095.60,     0.00,  55.7326,   2.3631
 4113.90,     0.00,  53.8188,   2.0989
 4148.80,     0.00,   52.017,   2.2419
 4148.90,     0.00,  47.9502,    2.081
 4163.30,     0.00,  46.4293,    2.015
 4164.10,     0.00,   49.951,   1.9631
 4175.70,     0.00,  47.6457,   1.8487
 4175.80,     0.00,  47.0486,   3.5475
 4186.10,     0.00,  46.8216,    2.224
 4189.20,     0.00,   47.238,    1.762
 4199.30,     0.00,   47.441,   1.7031
 4213.60,     0.00,  52.1221,   2.2725
 4214.20,     0.00,  48.5876,   1.7832
 4228.40,     0.00,  59.7089,   1.9226
 4228.90,     0.00,  58.3447,   6.4806
 4238.90,     0.00, 111.9196,   3.4247
 4239.00,     0.00,  94.1676,   2.3824
 4239.40,     0.00,  95.2227,   2.4948
 4249.40,     0.00, 164.6638,   3.1615
 4251.20,     0.00, 242.1538,   4.9642
 4251.40,     0.00, 203.3542,    3.152
 4259.70,     0.00, 306.8554,   4.6028
 4263.50,     0.00, 390.6431,    6.055
 4264.40,     0.00, 376.7359,   4.6339
 4268.80,     0.00, 395.4556,   4.6268
 4276.60,     0.00, 363.7189,   6.0014
 4277.00,     0.00, 397.2333,   4.8462
 4278.80,     0.00, 374.7655,   7.4204
 4279.10,     0.00, 390.4034,   6.2074
 4288.90,     0.00, 268.2519,   5.2577
 4289.00,     0.00, 306.7189,   5.1222
 4289.40,     0.00, 290.0307,   3.6834
 4298.20,     0.00, 237.8733,   4.0438
 4301.30,     0.00, 212.1338,    4.773
 4302.20,     0.00, 213.3255,   3.0932
 4313.70,     0.00, 168.9657,   2.9907
 4314.10,     0.00, 180.3069,   2.8308
 4324.00,     0.00, 156.0811,   2.4661
 4329.00,     0.00, 160.6245,   3.2607
 4333.60,     0.00, 146.2324,   2.2227
 4340.00,     0.00, 140.7631,   2.5478
 4343.60,     0.00, 136.5497,   2.3213
 4348.50,     0.00, 136.5196,   2.3208
 4354.00,     0.00, 133.1306,   2.3564
 4360.20,     0.00, 121.8908,   2.1087
 4364.20,     0.00, 121.5859,   1.9697
 4364.90,     0.00, 125.6381,   2.4248
 4389.20,     0.00, 119.9929,   2.1599
 4389.50,     0.00, 119.6062,   2.8107
 4414.30,     0.00, 111.8001,   2.1577
 4415.00,     0.00, 107.5784,   2.2484
 4420.40,     0.00, 105.3035,   2.5168
 4448.00,     0.00,   107.32,   2.3181
 4449.40,     0.00, 109.1944,   3.1011
 4449.50,     0.00, 106.8489,   3.4299
 4464.50,     0.00, 105.3965,   1.9393
 4465.40,     0.00,  105.292,   2.2006
 4513.00,     0.00, 107.6985,   2.2078
 4514.60,     0.00, 106.9295,   1.8285
 4515.00,     0.00, 105.6576,   1.2785
 4549.10,     0.00, 105.1133,   2.4597
 4564.80,     0.00, 103.6875,   1.8975
 4615.00,     0.00, 102.6148,   1.8573
 4649.20,     0.00, 108.9793,   2.5065
 4649.80,     0.00, 111.3628,   2.3832
 4665.20,     0.00,  111.724,   1.8434
 4715.30,     0.00, 120.0094,   1.9081
 4737.10,     0.00, 114.2276,    1.919
 4765.50,     0.00, 116.2575,   1.8601
 4815.90,     0.00,  121.813,   1.7785
 4851.40,     0.00, 123.9646,   2.1198
 4865.60,     0.00,  128.547,   1.7739
 4914.80,     0.00, 140.4806,   1.9527
 4948.20,     0.00, 142.1525,   2.1607
 4962.00,     0.00, 145.3861,   2.0645
 5016.20,     0.00,  156.785,   1.9598
 5048.20,     0.00, 157.1043,   2.5451
 5048.80,     0.00, 160.7957,   1.9295
 5066.50,     0.00, 165.2738,   1.6858
 5116.90,     0.00, 172.4628,   2.2938
 5117.00,     0.00, 174.9745,   2.2222
 5141.20,     0.00, 180.7505,   2.1148
 5166.80,     0.00, 185.0582,   2.2577
 5171.00,     0.00,  185.877,   2.6395
 5189.10,     0.00,   187.93,   2.4995
 5206.90,     0.00, 219.9269,   3.4089
 5216.70,     0.00, 202.6998,   5.6046
 5217.40,     0.00, 203.3806,   1.7897
 5224.30,     0.00, 202.8586,    3.124
 5228.10,     0.00, 202.1789,   3.2349
 5231.90,     0.00, 208.6198,   3.2336
 5235.60,     0.00, 209.4161,   3.1831
 5237.80,     0.00, 202.0632,   2.0206
 5239.40,     0.00, 209.7184,   7.4875
 5240.10,     0.00, 205.4635,   2.2396
 5240.90,     0.00, 206.1722,   2.5565
 5242.30,     0.00, 215.9971,   2.3544
 5243.20,     0.00, 206.2272,   2.5366
 5243.30,     0.00, 218.2852,   3.2743
 5244.80,     0.00, 206.5285,   2.2512
 5245.40,     0.00, 215.2402,   2.5183
 5247.10,     0.00, 234.3994,   3.3988
 5247.30,     0.00, 216.9832,   1.9528
 5248.10,     0.00, 217.6831,   2.5687
 5249.60,     0.00, 217.3942,   2.1087
 5250.90,     0.00, 244.6684,   3.4254
 5251.40,     0.00, 216.9848,   2.3651
 5252.10,     0.00, 224.9642,   2.2946
 5254.20,     0.00, 219.3087,   2.6536
 5254.60,     0.00, 242.1844,   3.5601
 5255.00,     0.00, 231.8522,  10.3283
 5257.20,     0.00, 232.6438,   6.1991
 5259.10,     0.00, 237.4944,   2.2799
 5259.40,     0.00, 236.3959,   2.1512
 5259.60,     0.00,   230.67,   2.6066
 5261.60,     0.00,  234.198,    9.269
 5262.90,     0.00,  226.905,   2.1102
 5274.50,     0.00,  227.028,   2.2249
 5276.00,     0.00, 225.5775,     1.94
 5276.10,     0.00, 240.5344,   2.3813
 5277.30,     0.00, 227.3669,   2.2964
 5286.50,     0.00, 223.7382,   3.2666
 5287.10,     0.00, 230.8109,   2.8621
 5297.50,     0.00, 227.8255,   1.9593
 5315.00,     0.00, 230.9702,   2.4945
 5317.20,     0.00, 237.3433,   2.9193
 5317.30,     0.00, 234.6326,   2.2525
 5319.50,     0.00, 235.7795,   2.0041
 5348.40,     0.00, 243.3693,   3.2855
 5364.70,     0.00,  250.895,   2.1577
 5411.30,     0.00,  265.445,    2.389
 5415.50,     0.00, 262.6271,   1.8909
 5461.60,     0.00, 287.9701,   2.7645
 5518.20,     0.00, 297.0459,   5.3177
 5568.80,     0.00,  315.696,    2.936
 5609.10,     0.00, 321.7164,   2.7668
 5609.90,     0.00, 320.0187,   2.9442
 5611.30,     0.00, 316.1406,   3.2562
 5643.80,     0.00, 327.8167,   2.9831
 5668.20,     0.00, 331.4027,   3.0158
 5692.80,     0.00, 336.3956,   2.9939
 5716.70,     0.00, 325.6281,   3.4191
 5718.90,     0.00, 331.8281,   3.0196
 5743.60,     0.00, 311.5042,   2.9593
 5764.00,     0.00, 291.5441,   3.0029
 5768.30,     0.00, 261.6161,   2.6946
 5772.80,     0.00, 292.5524,   2.9255
 5772.90,     0.00, 305.4665,    2.963
 5785.10,     0.00, 239.3077,   2.3452
 5793.80,     0.00, 148.1064,   2.0439
 5799.80,     0.00, 189.2553,    2.044
 5805.20,     0.00, 131.9277,   1.7019
 5819.20,     0.00,  95.0573,   1.4449
 5819.40,     0.00,  74.2973,  18.9907
 5824.80,     0.00,  64.0061,   1.2161
 5834.80,     0.00,  57.4109,   1.5386
 5835.40,     0.00,  49.6158,   1.0568
 5839.50,     0.00,  46.0294,   0.9988
 5844.50,     0.00,  47.3278,   1.1879
 5846.30,     0.00,  48.7206,   1.0719
 5855.50,     0.00,  56.8592,    1.177
 5859.50,     0.00,  56.4895,   1.0507
 5863.50,     0.00,  59.1587,   1.6328
 5864.60,     0.00,  62.7601,   1.2359
 5876.50,     0.00,  82.6956,   1.4389
 5879.60,     0.00,  85.5384,    1.745
 5895.50,     0.00, 103.8727,   1.4646
 5899.80,     0.00, 107.3883,   1.0631
 5919.20,     0.00, 123.8449,   1.5852
 5943.80,     0.00, 136.9121,   1.6977
 5944.20,     0.00, 136.2292,   2.7382
 5969.30,     0.00, 150.4107,   2.6171
 5989.60,     0.00, 149.4487,   1.8382
 5996.70,     0.00, 151.8265,   1.9434
 6020.60,     0.00, 150.8785,   1.8407
 6041.70,     0.00, 149.6996,   2.9341
 6041.80,     0.00, 155.3033,   1.9568
 6041.90,     0.00, 157.0305,   2.8423
 6042.00,     0.00, 151.5889,   2.4709
 6042.20,     0.00, 154.6744,   1.8406
 6042.30,     0.00, 147.9971,   3.9162
 6042.40,     0.00, 155.0345,   2.8216
 6042.50,     0.00, 155.7652,   2.8505
 6042.80,     0.00, 145.4981,   2.7936
 6042.90,     0.00, 154.8807,   4.3783
 6043.00,     0.00, 150.3781,  10.7435
 6043.10,     0.00, 152.5264,   2.6082
 6043.20,     0.00, 152.4235,   6.2006
 6043.30,     0.00, 152.3996,   3.5621
 6043.40,     0.00, 150.8556,    5.593
 6043.60,     0.00, 153.5691,   1.9196
 6043.70,     0.00, 151.9347,   5.2815
 6044.00,     0.00, 150.9901,   3.9662
 6044.10,     0.00, 152.8431,   2.0175
 6100.20,     0.00, 149.7494,   1.7071
 6119.50,     0.00, 151.5171,   1.8485
 6150.00,     0.00, 144.2449,   1.6877
 6170.50,     0.00, 143.0326,   1.5591
 6200.30,     0.00, 138.4757,   1.6756
 6219.70,     0.00, 135.5061,   1.4228
 6250.20,     0.00, 131.5022,   1.5912
 6282.40,     0.00, 126.0836,   1.6013
 6298.00,     0.00, 126.0321,   2.6341
 6299.30,     0.00, 126.0124,   1.5752
 6370.80,     0.00, 119.2624,   1.5385
 6401.70,     0.00, 119.4406,   1.5288
 6422.50,     0.00, 114.0125,   1.5734
 6474.50,     0.00, 111.5508,   1.5282
 6474.60,     0.00, 108.2364,   1.2339
 6485.10,     0.00, 105.5594,   1.6995
 6485.70,     0.00, 105.4003,   1.6337
 6490.90,     0.00, 106.0081,   1.6431
 6496.10,     0.00,  106.395,   1.6598
 6501.10,     0.00, 103.2409,   1.6209
 6501.60,     0.00,  106.956,   1.4439
 6506.50,     0.00, 104.7496,   1.6655
 6507.60,     0.00, 106.0422,   1.5588
 6511.50,     0.00,  95.2007,    1.447
 6511.70,     0.00, 105.3584,   1.5698
 6516.70,     0.00,  96.8614,   1.5498
 6519.90,     0.00,  96.1577,   1.4808
 6522.10,     0.00, 108.1108,   1.6973
 6525.20,     0.00,  99.0648,    1.486
 6526.50,     0.00, 108.4361,   1.6699
 6531.60,     0.00, 104.1506,   1.6352
 6532.60,     0.00, 110.5538,   1.5809
 6536.60,     0.00, 104.7525,   1.6446
 6541.20,     0.00, 104.9455,   1.6476
 6542.00,     0.00,  107.645,   1.5393
 6545.60,     0.00, 104.0882,   1.6446
 6571.60,     0.00, 104.0477,   1.6544
 6571.70,     0.00, 104.0555,   1.5504
 6595.80,     0.00, 104.5734,   1.5895
 6620.50,     0.00, 100.6744,    2.803
 6621.00,     0.00,  99.6586,   2.2191
 6621.50,     0.00,  101.528,   1.5432
EndData: